Description:
	Nichia Light Emitting Diode (LED): NSPW500DS
	http://www.nichia.co.jp/en/product/led_product_data.html?type=%27NSPW500DS%27
	White Illuminant
	Relative spectral power distributions [S(lambda)] for wavelengths lambda = 300 nm to 830Â nm at 1 nm intervals
End
Spectrum:
	300	0.0000
	301	0.0000
	302	0.0000
	303	0.0000
	304	0.0000
	305	0.0000
	306	0.0000
	307	0.0000
	308	0.0000
	309	0.0000
	310	0.0000
	311	0.0000
	312	0.0000
	313	0.0000
	314	0.0000
	315	0.0000
	316	0.0000
	317	0.0000
	318	0.0000
	319	0.0000
	320	0.0000
	321	0.0000
	322	0.0000
	323	0.0000
	324	0.0000
	325	0.0000
	326	0.0000
	327	0.0000
	328	0.0000
	329	0.0000
	330	0.0000
	331	0.0000
	332	0.0000
	333	0.0000
	334	0.0000
	335	0.0000
	336	0.0000
	337	0.0000
	338	0.0000
	339	0.0000
	340	0.0000
	341	0.0000
	342	0.0000
	343	0.0000
	344	0.0000
	345	0.0000
	346	0.0000
	347	0.0000
	348	0.0000
	349	0.0000
	350	0.0000
	351	0.0000
	352	0.0000
	353	0.0000
	354	0.0000
	355	0.0000
	356	0.0000
	357	0.0000
	358	0.0000
	359	0.0000
	360	0.0000
	361	0.0000
	362	0.0000
	363	0.0000
	364	0.0000
	365	0.0000
	366	0.0000
	367	0.0000
	368	0.0000
	369	0.0000
	370	0.0000
	371	0.0000
	372	0.0000
	373	0.0000
	374	0.0000
	375	0.0000
	376	0.0000
	377	0.0000
	378	0.0000
	379	0.0000
	380	0.0000
	381	0.3000
	382	0.2000
	383	0.0000
	384	0.3000
	385	0.0000
	386	0.2000
	387	0.3000
	388	0.2000
	389	0.2000
	390	0.3000
	391	0.2000
	392	0.3000
	393	0.2000
	394	0.2000
	395	0.3000
	396	0.1000
	397	0.2000
	398	0.3000
	399	0.1000
	400	0.3000
	401	0.3000
	402	0.3000
	403	0.4000
	404	0.3000
	405	0.3000
	406	0.4000
	407	0.4000
	408	0.5000
	409	0.4000
	410	0.5000
	411	0.7000
	412	0.5000
	413	0.7000
	414	0.7000
	415	0.8000
	416	1.0000
	417	1.1000
	418	1.0000
	419	1.3000
	420	1.3000
	421	1.6000
	422	1.7000
	423	2.0000
	424	2.3000
	425	2.7000
	426	3.0000
	427	3.4000
	428	4.0000
	429	4.5000
	430	5.3000
	431	6.0000
	432	6.8000
	433	7.7000
	434	8.9000
	435	10.0000
	436	11.8000
	437	12.7000
	438	14.7000
	439	16.5000
	440	18.2000
	441	20.4000
	442	22.3000
	443	25.4000
	444	28.3000
	445	31.5000
	446	34.5000
	447	38.3000
	448	43.3000
	449	48.0000
	450	53.8000
	451	58.7000
	452	64.9000
	453	70.8000
	454	77.1000
	455	83.5000
	456	88.8000
	457	93.4000
	458	97.8000
	459	99.6000
	460	99.7000
	461	99.4000
	462	97.2000
	463	94.0000
	464	89.6000
	465	84.3000
	466	80.0000
	467	73.8000
	468	68.7000
	469	64.4000
	470	59.7000
	471	56.0000
	472	52.7000
	473	49.7000
	474	47.4000
	475	44.9000
	476	42.9000
	477	40.7000
	478	38.5000
	479	36.7000
	480	34.7000
	481	32.8000
	482	31.3000
	483	29.1000
	484	27.7000
	485	26.0000
	486	24.8000
	487	23.6000
	488	22.3000
	489	21.7000
	490	21.2000
	491	20.1000
	492	19.4000
	493	19.1000
	494	18.7000
	495	18.5000
	496	18.2000
	497	17.8000
	498	17.8000
	499	17.4000
	500	17.5000
	501	17.7000
	502	17.9000
	503	17.7000
	504	18.0000
	505	18.5000
	506	18.8000
	507	19.4000
	508	19.3000
	509	20.1000
	510	20.6000
	511	20.9000
	512	22.0000
	513	22.5000
	514	23.0000
	515	23.8000
	516	24.3000
	517	25.1000
	518	25.4000
	519	26.1000
	520	27.1000
	521	27.5000
	522	28.0000
	523	28.7000
	524	29.3000
	525	29.9000
	526	30.5000
	527	31.0000
	528	31.4000
	529	32.1000
	530	32.5000
	531	32.8000
	532	33.6000
	533	33.9000
	534	34.1000
	535	34.5000
	536	35.0000
	537	35.3000
	538	35.6000
	539	36.3000
	540	37.0000
	541	37.1000
	542	37.5000
	543	37.4000
	544	37.7000
	545	37.8000
	546	38.1000
	547	38.5000
	548	38.4000
	549	38.6000
	550	38.5000
	551	38.6000
	552	39.0000
	553	38.8000
	554	38.9000
	555	38.9000
	556	39.0000
	557	39.2000
	558	39.3000
	559	39.3000
	560	39.2000
	561	39.5000
	562	39.4000
	563	39.5000
	564	39.1000
	565	39.2000
	566	39.2000
	567	39.0000
	568	39.3000
	569	39.0000
	570	38.9000
	571	38.8000
	572	38.8000
	573	38.8000
	574	38.5000
	575	38.4000
	576	38.4000
	577	38.0000
	578	37.8000
	579	38.0000
	580	37.6000
	581	37.4000
	582	37.4000
	583	37.3000
	584	36.8000
	585	37.1000
	586	36.9000
	587	36.5000
	588	36.5000
	589	36.4000
	590	36.3000
	591	35.8000
	592	35.5000
	593	35.1000
	594	34.8000
	595	34.5000
	596	34.6000
	597	34.4000
	598	34.2000
	599	33.5000
	600	33.8000
	601	33.3000
	602	33.0000
	603	32.6000
	604	32.2000
	605	32.2000
	606	31.8000
	607	31.6000
	608	31.2000
	609	30.9000
	610	30.6000
	611	30.5000
	612	30.2000
	613	29.5000
	614	29.2000
	615	28.9000
	616	28.7000
	617	28.2000
	618	28.0000
	619	27.5000
	620	27.5000
	621	27.0000
	622	27.0000
	623	26.4000
	624	26.3000
	625	25.7000
	626	25.3000
	627	25.2000
	628	24.7000
	629	24.4000
	630	24.0000
	631	23.4000
	632	23.5000
	633	22.9000
	634	22.6000
	635	22.0000
	636	21.7000
	637	21.3000
	638	21.3000
	639	20.7000
	640	20.3000
	641	20.4000
	642	19.6000
	643	19.5000
	644	19.3000
	645	19.1000
	646	18.5000
	647	18.4000
	648	18.2000
	649	17.8000
	650	17.5000
	651	17.3000
	652	16.6000
	653	16.4000
	654	16.1000
	655	15.9000
	656	15.5000
	657	15.1000
	658	15.1000
	659	14.8000
	660	14.5000
	661	14.4000
	662	13.8000
	663	13.8000
	664	13.5000
	665	13.0000
	666	12.7000
	667	12.8000
	668	12.3000
	669	12.0000
	670	11.9000
	671	11.7000
	672	11.4000
	673	11.2000
	674	11.0000
	675	10.7000
	676	10.5000
	677	10.4000
	678	10.2000
	679	9.9000
	680	9.6000
	681	9.6000
	682	9.1000
	683	9.1000
	684	8.9000
	685	8.5000
	686	8.4000
	687	8.4000
	688	7.9000
	689	7.8000
	690	7.7000
	691	7.4000
	692	7.3000
	693	7.3000
	694	7.0000
	695	6.9000
	696	6.9000
	697	6.6000
	698	6.6000
	699	6.4000
	700	6.1000
	701	6.2000
	702	5.9000
	703	5.8000
	704	5.6000
	705	5.6000
	706	5.4000
	707	5.3000
	708	5.2000
	709	5.0000
	710	5.0000
	711	5.1000
	712	4.8000
	713	4.8000
	714	4.6000
	715	4.3000
	716	4.5000
	717	4.3000
	718	4.2000
	719	4.0000
	720	3.8000
	721	3.7000
	722	3.7000
	723	3.7000
	724	3.6000
	725	3.6000
	726	3.4000
	727	3.4000
	728	3.2000
	729	3.0000
	730	3.1000
	731	3.0000
	732	3.0000
	733	2.9000
	734	2.9000
	735	2.5000
	736	2.6000
	737	2.6000
	738	2.5000
	739	2.6000
	740	2.4000
	741	2.4000
	742	2.4000
	743	2.4000
	744	2.1000
	745	2.2000
	746	2.1000
	747	2.0000
	748	2.1000
	749	1.9000
	750	2.0000
	751	1.9000
	752	1.9000
	753	1.8000
	754	1.8000
	755	1.6000
	756	1.7000
	757	1.6000
	758	1.5000
	759	1.5000
	760	1.6000
	761	1.5000
	762	1.5000
	763	1.3000
	764	1.4000
	765	1.3000
	766	1.4000
	767	1.3000
	768	1.3000
	769	1.2000
	770	1.3000
	771	1.3000
	772	1.2000
	773	1.1000
	774	1.1000
	775	1.0000
	776	1.0000
	777	1.1000
	778	1.0000
	779	0.9000
	780	0.9000
	781	1.0000
	782	1.0000
	783	0.9000
	784	0.8000
	785	0.9000
	786	0.8000
	787	0.8000
	788	0.8000
	789	0.7000
	790	0.7000
	791	0.7000
	792	0.6000
	793	0.7000
	794	0.6000
	795	0.7000
	796	0.5000
	797	0.6000
	798	0.6000
	799	0.6000
	800	0.6000
	801	0.6000
	802	0.6000
	803	0.6000
	804	0.5000
	805	0.5000
	806	0.5000
	807	0.5000
	808	0.5000
	809	0.5000
	810	0.5000
	811	0.5000
	812	0.5000
	813	0.5000
	814	0.4000
	815	0.4000
	816	0.4000
	817	0.4000
	818	0.4000
	819	0.4000
	820	0.4000
	821	0.4000
	822	0.4000
	823	0.4000
	824	0.4000
	825	0.4000
	826	0.3000
	827	0.3000
	828	0.3000
	829	0.3000
	830	0.3000
End
